Folder: event_analyser/backend/events

Note: Readme.md
# UI
![Events Example](events.png)

# Use container

- [Frontend Docker Image](https://hub.docker.com/r/vivkus/frontend)
- [Backend Docker Image](https://hub.docker.com/r/vivkus/backend)
- docker pull vivkus/frontend:latest
- docker pull vivkus/backend:latest
- docker run --name my-frontend -p 80:80 vivkus/frontend:latest
- docker run --name my-backend -p 8000:8000 vivkus/backend:latest
- open localhost:80 for frontend
- open localhost:8000 for backend

- 


# Event Search Backend (Django)


### TESTED WITH LOCUST FOR 10+ SIMULTANEOUS API CALLS WITH ASGI 4 WORKER NODE


## Setup & Installation



1. **Clone the repository and navigate to the backend directory**

2. **Install dependencies**
   ```bash
   pip install -r requirements.txt
   ```

3. **Ensure your event data files are in the `events/` folder at the project root.**

4. **Apply migrations**
   ```bash
   python manage.py migrate
   ```

5. **Run the development server**
   ```bash
   uvicorn eventsearch.asgi:application --workers 4
   ```
   The API will be available at `http://localhost:8000/api/search/`

## API Usage

### POST `/api/search/`
- **Body (JSON):**
  - `search_string`: (string) IP or field-based query (e.g., `dstaddr=221.181.27.227`)
  - `start_time`: (epoch, int)
  - `end_time`: (epoch, int)
- **Returns:**
  - List of matching events, file name, and search time

## Production
- For concurrent requests, use Gunicorn or Uvicorn:
  ```bash
  gunicorn eventsearch.wsgi:application --workers 4
  # or for async
  uvicorn eventsearch.asgi:application --workers 4
  ```
## locally
- use uvicorn eventsearch.asgi:application --workers 4 --host 127.0.0.1 --port 8000

## locust testing
- cd backend
- locust -f locustfile.py --host=http://localhost:8000       


## Notes
- The backend scans all files in the `events/` folder for every search.
- CORS is enabled for local frontend development. 



# Event Search Frontend (React + Vite + Tailwind)

## Setup & Installation

1. **Navigate to the frontend directory**
   ```bash
   cd frontend
   ```

2. **Install dependencies**
   ```bash
   npm install
   ```

3. **Start the development server**
   ```bash
   npm run dev
   ```
   The app will be available at `http://localhost:5173/`

## Usage
- Enter a search string (IP or field-based, e.g., `dstaddr=221.181.27.227`), start time, and end time.
- Click "Search" to query the backend and view results.

## Notes
- The frontend expects the backend API to be running at `http://localhost:8000/api/search/`.
- Make sure CORS is enabled in the backend for local development.

File: xrd
89001 2 660858787 eni-370203590 34.138.39.218 21.238.29.51 733 6600 9 8 336016 1725837108 1725838814 ACCEPT FAIL
89004 4 326537345 eni-230912769 10.193.73.201 79.119.188.210 679 4402 5 0 9551988 1725795192 1725798756 ACCEPT FAIL
89007 2 284044098 eni-500692634 173.23.48.172 211.237.148.219 634 13124 1 6 2069200 1725833544 1725838132 ACCEPT OK
89010 5 940356657 eni-306515672 151.78.180.207 14.65.135.206 457 22692 4 2 3299417 1725818855 1725818914 REJECT OK
89013 5 717997966 eni-963965730 88.109.65.112 185.212.179.108 899 15315 4 3 192317 1725839606 1725847743 REJECT FAIL
89016 3 898162384 eni-967528819 39.247.232.198 223.71.35.104 38 42947 5 10 7464120 1725794322 1725804137 REJECT OK
89019 3 435844745 eni-40570036 102.134.27.216 250.27.224.142 101 59535 1 2 6810310 1725805628 1725810863 REJECT FAIL
89022 3 574494332 eni-689372350 80.54.212.101 174.209.26.188 802 82556 4 3 6922330 1725835436 1725844210 ACCEPT OK
89025 4 978218457 eni-559384654 240.223.166.162 120.73.114.153 735 61117 3 6 6246666 1725838206 1725845470 ACCEPT OK
89028 1 653718715 eni-1023691738 211.228.155.214 95.85.82.174 323 97698 10 8 4782939 1725828552 1725830094 ACCEPT OK
89031 1 403976467 eni-208146493 235.61.179.186 9.46.73.136 81 67238 10 2 10243506 1725793596 1725799894 REJECT OK
89034 0 135553502 eni-1013720782 179.141.127.36 236.242.49.153 539 38369 10 3 429786 1725787165 1725794222 REJECT OK
89037 2 717462282 eni-1018956592 241.53.138.185 182.166.172.50 802 53146 9 9 9242570 1725794690 1725799692 REJECT OK
89040 2 217843905 eni-306738392 86.194.41.32 27.57.119.67 84 59521 9 6 331130 1725865130 1725875095 REJECT FAIL
89043 3 920400746 eni-1009634347 15.33.117.130 59.50.181.102 372 97766 2 8 5810762 1725809065 1725819023 ACCEPT OK
89046 4 804278990 eni-587312434 227.140.145.209 108.85.163.139 976 54429 6 3 6890188 1725860224 1725861281 ACCEPT FAIL
89049 0 170728537 eni-818812862 45.166.43.88 19.151.214.234 372 71840 2 3 5340145 1725841706 1725845499 ACCEPT OK
89052 4 216694157 eni-111718401 113.245.236.93 38.210.242.247 274 17108 3 7 6428550 1725797083 1725797328 ACCEPT OK
89055 3 46119129 eni-887818190 27.107.59.30 65.168.113.139 799 101945 10 9 9430314 1725791906 1725798351 REJECT OK
89058 3 634501242 eni-787723554 152.60.0.84 27.204.181.186 828 87392 5 4 2752690 1725823102 1725825121 ACCEPT OK
89061 2 645894458 eni-121773629 254.177.15.127 27.214.243.105 132 29510 9 2 2571669 1725864272 1725868632 REJECT OK
89064 4 943971234 eni-199274408 207.128.187.226 185.33.125.141 716 96119 4 6 4067751 1725821744 1725830068 REJECT OK
89067 1 876717627 eni-410899613 30.87.218.119 31.254.122.62 977 87581 4 6 2383752 1725793885 1725799667 ACCEPT FAIL
89070 3 324979287 eni-688466183 182.176.179.128 203.138.213.61 762 71886 2 10 1197556 1725844745 1725847753 REJECT FAIL
89073 0 283592260 eni-484737513 183.174.232.253 222.150.238.221 501 26631 1 10 265726 1725786566 1725790652 REJECT FAIL
89076 0 553802610 eni-414888382 75.206.30.90 90.131.83.88 179 52206 4 7 4359895 1725848105 1725851748 REJECT FAIL
89079 5 614111034 eni-790825468 8.88.159.60 133.55.147.160 710 66862 10 10 7624485 1725810272 1725818690 REJECT OK
89082 4 523180808 eni-479881955 25.27.127.32 25.77.201.240 286 58015 7 0 6593289 1725818626 1725821248 REJECT FAIL
89085 3 281552190 eni-688008032 88.65.78.221 151.161.104.154 9 3926 9 9 8642025 1725802653 1725810292 REJECT OK
89088 0 566232042 eni-232655610 255.31.150.246 51.143.126.158 489 4141 6 8 2187141 1725804020 1725809524 ACCEPT FAIL
89091 1 7694103 eni-984839868 253.189.162.193 10.50.132.105 990 55366 1 0 10036559 1725798538 1725803038 REJECT FAIL
89094 2 6691921 eni-44058996 73.36.110.134 184.58.169.8 404 11136 3 0 9493664 1725864359 1725865204 ACCEPT OK
89097 5 505561527 eni-170159743 225.202.119.137 93.200.216.213 68 30398 7 4 3388830 1725812191 1725813312 ACCEPT FAIL
89100 4 388194093 eni-356523112 95.45.171.237 14.92.220.202 606 973 9 9 7408346 1725866254 1725874740 ACCEPT OK
89103 4 118588029 eni-669648459 223.8.223.130 115.54.131.60 800 40082 9 8 1375290 1725826718 1725834238 REJECT OK
89106 2 673527619 eni-380250553 219.221.142.134 3.242.7.245 775 86486 2 1 7967585 1725825772 1725827488 REJECT FAIL
89109 4 707391210 eni-365468350 19.0.51.233 133.245.108.64 1010 65366 1 2 1302092 1725857478 1725860397 REJECT FAIL
89112 1 495209873 eni-480978267 114.3.197.195 174.104.248.64 674 78078 5 7 866838 1725817311 1725820860 ACCEPT OK
89115 2 416326900 eni-273094781 14.27.133.114 152.164.159.6 911 46912 5 2 6808183 1725837797 1725840449 REJECT FAIL
89118 2 65754292 eni-503995207 188.249.127.139 181.156.216.163 414 67001 3 7 6519685 1725827067 1725832948 ACCEPT FAIL
89121 4 703512645 eni-477104647 202.163.140.224 168.107.216.220 989 75078 1 9 5784445 1725838939 1725843861 REJECT FAIL
89124 5 575751180 eni-1047400137 115.123.146.225 176.205.38.165 679 56180 5 3 1896839 1725848837 1725858130 ACCEPT FAIL
89127 0 312290818 eni-452034386 80.37.188.60 65.245.179.96 72 31329 3 2 641053 1725858038 1725867059 ACCEPT OK
89130 5 196652828 eni-29721259 1.68.218.165 42.21.127.127 20 14052 4 5 1854404 1725797656 1725800954 ACCEPT OK
89133 5 665546110 eni-319396282 242.187.109.176 150.15.90.142 247 99217 8 0 3470257 1725859015 1725862461 REJECT FAIL
89136 5 122380473 eni-871778088 77.170.76.50 238.220.99.79 586 44769 1 5 4981340 1725865869 1725875825 REJECT FAIL
89139 3 695633467 eni-452795879 54.1.212.236 80.6.15.238 942 10279 8 6 5812764 1725801968 1725811018 ACCEPT FAIL
89142 4 434621213 eni-939492691 149.45.62.105 60.95.199.119 721 101293 1 10 7622998 1725862938 1725865824 ACCEPT FAIL
89145 2 96741360 eni-740242833 186.149.178.187 223.123.93.2 572 85989 6 5 9055268 1725864768 1725865037 ACCEPT FAIL
89148 5 87058631 eni-371136360 10.116.131.47 187.127.161.82 209 50553 6 6 1532183 1725859618 1725860680 ACCEPT FAIL
89151 2 454913773 eni-567801827 151.119.207.243 106.214.8.83 30 12060 7 10 3733666 1725841899 1725847121 REJECT OK
89154 3 640954847 eni-868196495 149.218.155.53 38.166.100.93 860 75434 1 0 7323009 1725825114 1725832676 REJECT FAIL
89157 2 943232235 eni-732140502 18.222.149.167 228.210.57.159 821 23159 10 1 3154051 1725856583 1725862190 REJECT OK
89160 0 266206619 eni-645311570 204.10.55.6 149.189.201.169 331 56208 9 8 10070520 1725804531 1725813032 REJECT OK
89163 2 302377582 eni-837620619 23.52.215.251 69.254.118.230 202 46544 6 5 2678329 1725859099 1725860029 REJECT FAIL
89166 0 910904739 eni-46632072 181.201.12.109 173.46.120.117 848 62386 2 4 872965 1725815462 1725819542 REJECT OK
89169 2 1013302360 eni-566691150 70.244.235.210 140.179.109.100 599 67967 9 3 3600373 1725839717 1725839910 REJECT FAIL
89172 2 285914420 eni-586953668 86.27.215.229 114.89.148.244 473 43042 0 3 8082207 1725827259 1725835765 ACCEPT FAIL
89175 1 916559993 eni-552360393 31.111.71.197 144.242.247.76 160 9041 6 6 7752169 1725801357 1725802316 REJECT OK
89178 3 223344693 eni-881479157 187.66.167.236 143.65.12.132 63 35090 10 8 2136739 1725781243 1725787098 ACCEPT OK
89181 2 432759342 eni-888401464 96.8.177.51 189.79.17.46 385 58803 10 4 9568266 1725793919 1725796268 ACCEPT OK
89184 0 214234188 eni-222038297 187.50.172.130 237.202.180.64 754 71506 1 4 2786359 1725807772 1725814644 REJECT FAIL
89187 5 693308589 eni-632549137 225.214.102.145 246.46.30.165 355 31397 6 0 312758 1725811559 1725817294 REJECT OK
89190 5 287900331 eni-783237267 236.74.43.7 180.87.81.0 175 60536 8 6 2976327 1725782783 1725791562 REJECT FAIL
89193 1 461697181 eni-829808813 49.188.166.52 24.48.89.131 276 83572 4 2 174721 1725855014 1725860015 REJECT OK
89196 2 391408514 eni-627452681 170.197.233.146 77.88.184.66 646 51676 8 6 8408892 1725851971 1725856210 ACCEPT FAIL
89199 3 581138020 eni-120068908 112.217.250.239 140.49.192.197 688 26529 1 4 9264309 1725851160 1725860856 REJECT OK
89200 2 760883102 eni-357669964 74.244.172.24 122.216.136.239 76 53155 3 10 3972532 1725830495 1725836238 ACCEPT FAIL